Folder: CSE514-Project (part 2)

File: standardized_raw_training.csv
Index,Cement (component 1)(kg in a m^3 mixture),Blast Furnace Slag (component 2)(kg in a m^3 mixture),Fly Ash (component 3)(kg in a m^3 mixture),Water  (component 4)(kg in a m^3 mixture),Superplasticizer (component 5)(kg in a m^3 mixture),Coarse Aggregate  (component 6)(kg in a m^3 mixture),Fine Aggregate (component 7)(kg in a m^3 mixture),Age (day),"Concrete compressive strength(MPa, megapascals) "
1,2.47791,-0.856888,-0.847144,-0.916764,-0.620448,0.863154,-1.21767,-0.279733,79.99
9,-0.145209,0.465044,-0.847144,2.17546,-1.03914,-0.526517,-1.29254,-0.279733,45.85
17,-1.35529,1.57129,-0.847144,0.488793,-1.03914,0.953226,0.415782,0.702224,39.36
25,0.946164,-0.856888,-0.847144,2.17546,-1.03914,-0.526517,-1.29254,5.05768,52.52
33,-0.790459,0.678408,-0.847144,0.488793,-1.03914,0.0705267,0.647884,2.12764,41.72
41,0.582373,-0.416244,-0.847144,2.17546,-1.03914,-0.526517,-1.29254,0.702224,50.46
49,-0.418052,1.89714,-0.847144,2.17546,-1.03914,-0.526517,-2.24092,-0.612331,26.26
57,1.85564,-0.856888,-0.847144,2.17546,-1.03914,-0.526517,-2.24092,5.05768,41.93
65,-0.145209,0.465044,-0.847144,2.17546,-1.03914,-0.526517,-1.29254,2.12764,48.7
73,1.37697,0.375755,-0.847144,-1.31501,1.72424,-1.55462,1.41657,-0.675683,33.4
81,1.37697,0.375755,-0.847144,-1.31501,1.72424,-1.55462,1.41657,-0.675683,33.4
89,0.779586,1.33474,-0.847144,-0.780894,0.9036,-0.363102,-0.221876,-0.675683,35.3
97,1.37697,0.375755,-0.847144,-1.41339,2.07594,-0.475048,0.37585,-0.612331,46.8
105,0.360269,1.60724,-0.847144,-1.21193,1.35579,-1.55462,1.33296,-0.612331,33.4
113,1.511,1.19558,-0.847144,0.207681,0.819861,-1.13257,-0.819602,-0.612331,56.1
121,0.898297,0.230807,-0.847144,-2.57532,2.87984,-1.55462,2.73306,-0.279733,56.7
129,1.15486,0.241243,-0.847144,-1.6008,0.870104,-0.336081,0.979815,-0.279733,68.5
137,1.04094,1.33474,-0.847144,-1.67108,2.64537,-0.363102,-0.221876,-0.279733,74.5
145,1.85564,0.520704,-0.847144,-0.02189303,0.45141,-1.55462,0.0988246,0.163731,72.3
153,0.779586,1.33474,-0.847144,-0.780894,0.9036,-0.363102,-0.221876,0.163731,77.3
161,0.779586,1.33474,-0.847144,-0.780894,0.9036,-0.363102,-0.221876,0.163731,77.3
169,1.7982,0.50215,-0.847144,-2.05058,4.35364,-1.55462,0.835063,0.718062,70.7
177,0.941377,0.896411,-0.847144,-1.29626,1.62375,2.07654,-2.10365,0.718062,56.5
185,-0.562611,-0.856888,0.664598,0.362293,-0.285493,-0.0748741,1.20693,-0.675683,11.58
193,-0.453474,-0.856888,0.631768,0.765219,-0.268745,-0.333507,0.981063,0.163731,27.66
201,-0.866089,-0.856888,1.11327,-0.9120792,0.267184,1.50652,0.379594,-0.501465,21.06
209,-0.661217,-0.856888,1.05387,-0.0593746,-0.0845194,1.08962,0.0713717,0.860604,39.61
217,-0.869918,-0.856888,1.11015,-0.92145,0.618887,1.48207,0.362124,-0.279733,28.47
225,-1.08341,-0.368701,1.71359,-2.80021,-0.0845194,1.10377,0.0813546,-0.675683,7.75
233,-0.6459,0.280669,-0.464128,0.006218112,0.116454,1.19513,0.147491,0.163731,50.77
241,-0.492725,-0.856888,1.00071,0.638719,-0.0175283,0.710033,-0.199414,-0.501465,22.32
249,-0.412308,-0.856888,0.623952,0.240478,0.133202,-0.296192,0.916174,0.860604,44.3
257,-0.657388,-0.856888,0.722442,-1.04326,0.417914,0.448826,1.62246,-0.279733,31.64
265,-0.662175,-0.856888,1.10389,-1.05732,0.267184,1.44733,0.32344,-0.675683,19.52
273,-0.47262,-0.856888,1.05387,-0.354542,0.0829584,1.07418,0.0613888,0.163731,42.7
281,-0.284981,-0.856888,1.00228,0.324811,0.03271508,0.713893,-0.198167,-0.501465,24.43
289,-0.955122,-0.856888,1.76362,-0.56069,0.233688,1.06388,0.0526537,0.860604,45.37
297,-1.07479,-0.367541,1.09608,-1.09012,0.769617,1.38814,0.28226,-0.279733,31.12
305,-0.0389435,-0.856888,0.675542,-0.982357,0.937095,0.0126237,1.27306,-0.675683,23.14
313,0.139123,-0.856888,0.647402,-0.471671,0.45141,-0.229282,1.06841,0.163731,48.72
321,-0.307,-0.856888,0.697428,-1.09949,1.10457,0.19148,1.44028,-0.501465,28.68
329,-0.276365,-0.856888,0.697428,-1.65234,1.33904,0.19148,1.44028,0.860604,60.95
337,-0.0580904,-0.856888,1.05074,-1.03389,0.618887,1.03815,0.0489101,-0.279733,51.33
345,-0.6459,-0.856888,1.884,-1.2541,0.669131,1.03686,0.0351837,-0.675683,17.57
353,-0.647814,-0.856888,1.87618,-1.26347,0.920347,1.02142,0.0239529,0.163731,51.43
361,-0.602819,-0.223752,1.08826,-1.91002,0.953843,1.32252,0.238585,-0.501465,35.96
369,-0.634412,-0.233029,1.05856,-1.21662,0.568644,0.532464,0.0875939,0.860604,56.63
377,0.90787,-0.856888,-0.847144,1.54765,-1.03914,0.393497,-0.139517,-0.279733,31.97
385,2.24815,-0.856888,-0.847144,-0.916764,0.334175,-2.21214,0.354636,-0.279733,41.37
393,0.496212,-0.65396,1.70109,-0.682505,1.95871,0.296992,-1.51716,-0.279733,47.28
401,-0.298384,1.23037,0.638022,-1.05732,0.551896,-1.45297,0.329679,-0.279733,67.87
409,-0.987672,0.648259,1.00697,-0.0781153,-0.436223,0.442393,-0.334184,-0.675683,20.73
417,-0.647814,-0.856888,1.87618,-1.04795,0.920347,0.909477,-0.0209701,-0.675683,15.61
425,-1.03075,-0.275934,1.86524,-0.785579,0.04946286,0.428238,0.248568,-0.501465,33.01
433,-1.11213,-0.856888,1.3978,-0.832431,-1.03914,0.420518,1.58877,-0.279733,26.2
441,-0.869918,-0.856888,1.11015,-0.701246,0.618887,1.36498,0.315953,-0.279733,24.85
449,-1.08915,0.649418,1.1633,-0.284264,0.267184,0.429525,-0.336679,0.163731,51.72
457,-0.827795,-0.856888,0.724005,-0.532579,0.216941,0.322726,1.6,0.163731,43.39
465,-1.09298,0.0174422,1.76362,-0.823061,0.283932,0.442393,-0.0434317,0.860604,56.81
473,1.57801,-0.578587,0.387889,-0.916764,0.9036,-0.0761609,-0.76844,-0.279733,44.42
481,1.57801,-0.578587,0.387889,-0.916764,0.9036,-0.0761609,-0.76844,-0.612331,39.3
489,1.01318,-0.62497,0.622388,-1.15102,1.35579,-0.449313,0.891217,-0.675683,22.75
497,1.01318,-0.62497,0.622388,-1.15102,0.9036,-0.449313,0.891217,0.163731,61.46
635,-0.0590477,-0.856888,-0.847144,0.0671256,-1.03914,1.48079,0.429508,-0.279733,24.5
643,-0.298384,-0.856888,-0.847144,0.0202737,-1.03914,1.63519,0.579252,-0.279733,20.87
651,-1.51804,1.2756,-0.847144,1.02759,-1.03914,-0.189393,0.330927,0.702224,33.19
659,0.231028,1.50288,-0.847144,1.02759,-1.03914,-0.09674858,-1.77921,-0.612331,25.89
667,-0.853644,2.48273,-0.847144,0.488793,-1.03914,-0.554826,-0.717277,-0.675683,12.79
675,-0.432412,0.963667,-0.847144,0.488793,-1.03914,-0.004103804,-0.305483,-0.675683,13.57
683,-0.931188,0.564768,-0.847144,1.02759,-1.03914,-0.176526,0.329679,-0.279733,24.05
691,0.0654071,1.36952,-0.847144,0.488793,-1.03914,-0.526517,-0.696064,-0.612331,23.52
699,-0.743549,2.68334,-0.847144,1.02759,-1.03914,-0.122483,-1.79169,-0.279733,41.68
707,-1.22701,0.325893,-0.847144,0.488793,-1.03914,-1.09268,2.11537,0.702224,26.32
715,-1.22701,0.325893,-0.847144,0.488793,-1.03914,-1.09268,2.11537,-0.612331,8.37
723,0.276023,-0.856888,-0.847144,0.488793,-1.03914,0.502869,0.704038,-0.612331,17.24
731,0.477065,-0.856888,-0.847144,0.488793,-1.03914,0.670144,0.59173,1.17736,39.38
739,0.141995,-0.856888,-0.847144,0.207681,-1.03914,1.50652,-0.0571581,-0.612331,18.91
747,2.09498,-0.856888,-0.847144,0.863608,-1.03914,1.95688,-2.00382,-0.707359,12.64
755,2.47791,-0.856888,-0.847144,-0.401393,-1.03914,1.95688,-2.00382,0.702224,69.66
763,0.658961,-0.856888,-0.847144,1.00416,-1.03914,0.0139105,0.0177136,2.12764,32.72
771,0.649387,-0.856888,-0.847144,0.488793,-1.03914,0.953226,0.404551,-0.675683,14.99
779,0.132421,-0.856888,-0.847144,0.160829,-1.03914,1.23631,-0.0571581,-0.612331,14.8
787,0.477065,-0.856888,-0.847144,0.488793,-1.03914,0.0653798,0.641645,-0.279733,31.45
795,0.199435,-0.856888,-0.847144,1.00416,-1.03914,0.0139105,0.541816,2.12764,26.74
803,0.553653,-0.856888,-0.847144,0.160829,-1.03914,1.1205,-0.244337,-0.279733,31.65
811,0.276023,-0.856888,-0.847144,0.488793,-1.03914,-0.0375589,0.95361,-0.612331,14.99
819,2.33431,-0.856888,-0.847144,0.348237,-1.03914,1.95688,-2.00382,-0.279733,55.94
827,1.90351,-0.856888,-0.847144,0.488793,-1.03914,-0.475048,-0.656132,-0.675683,24.39
835,0.276023,0.801324,0.888155,-0.635653,2.64537,-0.758129,-1.52964,-0.279733,33.69
843,-1.24615,-0.856888,2.02939,-0.682505,0.970591,0.232655,-0.0197223,-0.279733,15.57
851,-1.19829,1.96091,-0.847144,-0.0734301,0.803113,0.631542,-0.94314,-0.279733,37.36
859,0.390904,0.8709,-0.847144,0.207681,0.30068,-0.282038,-0.805875,-0.279733,52.42
867,-1.15999,2.04208,-0.847144,-0.635653,0.970591,0.97896,-1.06793,-0.279733,39.45
875,0.304743,-0.856888,0.919421,-0.167134,0.30068,0.374196,-1.05545,-0.279733,36.8
883,-1.35146,0.685366,0.763088,0.863608,0.133202,-0.732395,-0.256816,-0.279733,36.44
891,-1.17914,-0.856888,2.20135,1.80065,0.803113,-0.964007,-0.755961,-0.279733,8.54
899,0.524932,-0.856888,-0.847144,0.0202737,-0.536709,0.168318,0.541816,-0.279733,44.86
907,-0.145209,0.441852,0.512955,-0.167134,0.635635,-0.809599,-0.356645,-0.279733,39.42
915,0.304743,0.824516,-0.847144,-0.167134,0.30068,0.374196,-1.05545,-0.279733,41.05
923,-0.250517,0.291105,0.356622,0.348237,-0.034276,-0.693793,-0.306731,-0.279733,33.8
931,-1.16957,1.56665,1.66982,0.91046,0.133202,-1.60737,-1.30502,-0.279733,30.88
939,-1.20978,1.2698,-0.847144,0.5497,0.484905,0.958372,-0.959363,-0.279733,18.29
947,-1.26051,1.87974,-0.847144,-0.270208,1.07108,-1.62281,1.48645,-0.279733,32.96
955,-1.24903,-0.856888,2.04971,-0.69656,1.57351,1.30708,-1.19271,-0.279733,13.46
963,-1.30551,-0.856888,1.24147,-0.0359486,0.819861,0.0846808,0.473183,-0.279733,13.2
971,0.314317,0.827995,0.922548,-0.124967,0.30068,-1.33587,-1.04047,-0.279733,46.23
979,-1.20595,1.2756,1.39155,0.573126,0.501653,-1.20077,-0.936901,-0.279733,28.99
987,-0.0801093,0.36184,0.431662,1.31807,0.468157,-0.886803,-1.1715,-0.279733,37.17
995,0.891595,-0.856888,-0.847144,0.404459,0.0829584,0.51831,-0.538833,-0.279733,39.06
1003,0.384203,1.04716,-0.847144,0.418515,-0.268745,-1.32429,0.005234964,-0.279733,57.22
1011,0.351653,-0.856888,1.13047,1.31807,-0.0845194,-1.44653,-0.461466,-0.279733,40.06
1019,0.38516,-0.856888,1.15236,0.0436996,0.886852,-1.32301,0.0763631,-0.279733,37.27
1027,0.392819,-0.856888,0.960068,0.6762,0.702626,-1.99468,0.496893,-0.279733,31.18
1030,-0.194033,0.308499,0.376945,0.891719,0.401166,-1.39506,-0.150748,-0.279733,32.4