Folder: CSE514-Project

File: raw_testing.csv
Cement (component 1)(kg in a m^3 mixture),Blast Furnace Slag (component 2)(kg in a m^3 mixture),Fly Ash (component 3)(kg in a m^3 mixture),Water  (component 4)(kg in a m^3 mixture),Superplasticizer (component 5)(kg in a m^3 mixture),Coarse Aggregate  (component 6)(kg in a m^3 mixture),Fine Aggregate (component 7)(kg in a m^3 mixture),Age (day),"Concrete compressive strength(MPa, megapascals) "
491.0 ,26.0 ,123.0 ,210.0 ,3.9 ,882.0 ,699.0 ,28 ,55.55
491.0 ,26.0 ,123.0 ,201.0 ,3.9 ,822.0 ,699.0 ,28 ,57.92
491.0 ,26.0 ,123.0 ,210.0 ,3.9 ,882.0 ,699.0 ,3 ,25.61
491.0 ,26.0 ,123.0 ,210.0 ,3.9 ,882.0 ,699.0 ,7 ,33.49
491.0 ,26.0 ,123.0 ,210.0 ,3.9 ,882.0 ,699.0 ,56 ,59.59
491.0 ,26.0 ,123.0 ,201.0 ,3.9 ,822.0 ,699.0 ,3 ,29.55
491.0 ,26.0 ,123.0 ,201.0 ,3.9 ,822.0 ,699.0 ,7 ,37.92
491.0 ,26.0 ,123.0 ,201.0 ,3.9 ,822.0 ,699.0 ,56 ,61.86
424.0 ,22.0 ,132.0 ,178.0 ,8.5 ,822.0 ,750.0 ,28 ,62.05
424.0 ,22.0 ,132.0 ,178.0 ,8.5 ,882.0 ,750.0 ,3 ,32.01
424.0 ,22.0 ,132.0 ,168.0 ,8.9 ,822.0 ,750.0 ,28 ,72.10
424.0 ,22.0 ,132.0 ,178.0 ,8.5 ,822.0 ,750.0 ,7 ,39.00
424.0 ,22.0 ,132.0 ,178.0 ,8.5 ,822.0 ,750.0 ,56 ,65.70
424.0 ,22.0 ,132.0 ,168.0 ,8.9 ,822.0 ,750.0 ,3 ,32.11
424.0 ,22.0 ,132.0 ,168.0 ,8.9 ,822.0 ,750.0 ,7 ,40.29
424.0 ,22.0 ,132.0 ,168.0 ,8.9 ,822.0 ,750.0 ,56 ,74.36
202.0 ,11.0 ,141.0 ,206.0 ,1.7 ,942.0 ,801.0 ,28 ,21.97
202.0 ,11.0 ,141.0 ,206.0 ,1.7 ,942.0 ,801.0 ,3 ,9.85
202.0 ,11.0 ,141.0 ,206.0 ,1.7 ,942.0 ,801.0 ,7 ,15.07
202.0 ,11.0 ,141.0 ,206.0 ,1.7 ,942.0 ,801.0 ,56 ,23.25
284.0 ,15.0 ,141.0 ,179.0 ,5.5 ,842.0 ,801.0 ,28 ,43.73
284.0 ,15.0 ,141.0 ,179.0 ,5.5 ,842.0 ,801.0 ,3 ,13.40
284.0 ,15.0 ,141.0 ,179.0 ,5.5 ,842.0 ,801.0 ,7 ,24.13
284.0 ,15.0 ,141.0 ,179.0 ,5.5 ,842.0 ,801.0 ,56 ,44.52
359.0 ,19.0 ,141.0 ,154.0 ,10.9 ,942.0 ,801.0 ,28 ,62.94
359.0 ,19.0 ,141.0 ,154.0 ,10.9 ,942.0 ,801.0 ,28 ,59.49
359.0 ,19.0 ,141.0 ,154.0 ,10.9 ,942.0 ,801.0 ,3 ,25.12
359.0 ,19.0 ,141.0 ,154.0 ,10.9 ,942.0 ,801.0 ,3 ,23.64
359.0 ,19.0 ,141.0 ,154.0 ,10.9 ,942.0 ,801.0 ,7 ,35.75
359.0 ,19.0 ,141.0 ,154.0 ,10.9 ,942.0 ,801.0 ,7 ,38.61
359.0 ,19.0 ,141.0 ,154.0 ,10.9 ,942.0 ,801.0 ,56 ,68.75
359.0 ,19.0 ,141.0 ,154.0 ,10.9 ,942.0 ,801.0 ,56 ,66.78
436.0 ,0.0 ,0.0 ,218.0 ,0.0 ,838.4 ,719.7 ,28 ,23.85
289.0 ,0.0 ,0.0 ,192.0 ,0.0 ,913.2 ,895.3 ,90 ,32.07
289.0 ,0.0 ,0.0 ,192.0 ,0.0 ,913.2 ,895.3 ,3 ,11.65
393.0 ,0.0 ,0.0 ,192.0 ,0.0 ,940.6 ,785.6 ,3 ,19.20
393.0 ,0.0 ,0.0 ,192.0 ,0.0 ,940.6 ,785.6 ,90 ,48.85
393.0 ,0.0 ,0.0 ,192.0 ,0.0 ,940.6 ,785.6 ,28 ,39.60
480.0 ,0.0 ,0.0 ,192.0 ,0.0 ,936.2 ,712.2 ,28 ,43.94
480.0 ,0.0 ,0.0 ,192.0 ,0.0 ,936.2 ,712.2 ,7 ,34.57
480.0 ,0.0 ,0.0 ,192.0 ,0.0 ,936.2 ,712.2 ,90 ,54.32
480.0 ,0.0 ,0.0 ,192.0 ,0.0 ,936.2 ,712.2 ,3 ,24.40
333.0 ,0.0 ,0.0 ,192.0 ,0.0 ,931.2 ,842.6 ,3 ,15.62
255.0 ,0.0 ,0.0 ,192.0 ,0.0 ,889.8 ,945.0 ,90 ,21.86
255.0 ,0.0 ,0.0 ,192.0 ,0.0 ,889.8 ,945.0 ,7 ,10.22
289.0 ,0.0 ,0.0 ,192.0 ,0.0 ,913.2 ,895.3 ,7 ,14.60
255.0 ,0.0 ,0.0 ,192.0 ,0.0 ,889.8 ,945.0 ,28 ,18.75
333.0 ,0.0 ,0.0 ,192.0 ,0.0 ,931.2 ,842.6 ,28 ,31.97
333.0 ,0.0 ,0.0 ,192.0 ,0.0 ,931.2 ,842.6 ,7 ,23.40
289.0 ,0.0 ,0.0 ,192.0 ,0.0 ,913.2 ,895.3 ,28 ,25.57
333.0 ,0.0 ,0.0 ,192.0 ,0.0 ,931.2 ,842.6 ,90 ,41.68
393.0 ,0.0 ,0.0 ,192.0 ,0.0 ,940.6 ,785.6 ,7 ,27.74
255.0 ,0.0 ,0.0 ,192.0 ,0.0 ,889.8 ,945.0 ,3 ,8.20
158.8 ,238.2 ,0.0 ,185.7 ,0.0 ,1040.6 ,734.3 ,7 ,9.62
239.6 ,359.4 ,0.0 ,185.7 ,0.0 ,941.6 ,664.3 ,7 ,25.42
238.2 ,158.8 ,0.0 ,185.7 ,0.0 ,1040.6 ,734.3 ,7 ,15.69
181.9 ,272.8 ,0.0 ,185.7 ,0.0 ,1012.4 ,714.3 ,28 ,27.94
193.5 ,290.2 ,0.0 ,185.7 ,0.0 ,998.2 ,704.3 ,28 ,32.63
255.5 ,170.3 ,0.0 ,185.7 ,0.0 ,1026.6 ,724.3 ,7 ,17.24
272.8 ,181.9 ,0.0 ,185.7 ,0.0 ,1012.4 ,714.3 ,7 ,19.77
239.6 ,359.4 ,0.0 ,185.7 ,0.0 ,941.6 ,664.3 ,28 ,39.44
220.8 ,147.2 ,0.0 ,185.7 ,0.0 ,1055.0 ,744.3 ,28 ,25.75
397.0 ,0.0 ,0.0 ,185.7 ,0.0 ,1040.6 ,734.3 ,28 ,33.08
382.5 ,0.0 ,0.0 ,185.7 ,0.0 ,1047.8 ,739.3 ,7 ,24.07
210.7 ,316.1 ,0.0 ,185.7 ,0.0 ,977.0 ,689.3 ,7 ,21.82
158.8 ,238.2 ,0.0 ,185.7 ,0.0 ,1040.6 ,734.3 ,28 ,21.07
295.8 ,0.0 ,0.0 ,185.7 ,0.0 ,1091.4 ,769.3 ,7 ,14.84
255.5 ,170.3 ,0.0 ,185.7 ,0.0 ,1026.6 ,724.3 ,28 ,32.05
203.5 ,135.7 ,0.0 ,185.7 ,0.0 ,1076.2 ,759.3 ,7 ,11.96
397.0 ,0.0 ,0.0 ,185.7 ,0.0 ,1040.6 ,734.3 ,7 ,25.45
381.4 ,0.0 ,0.0 ,185.7 ,0.0 ,1104.6 ,784.3 ,28 ,22.49
295.8 ,0.0 ,0.0 ,185.7 ,0.0 ,1091.4 ,769.3 ,28 ,25.22
228.0 ,342.1 ,0.0 ,185.7 ,0.0 ,955.8 ,674.3 ,28 ,39.70
220.8 ,147.2 ,0.0 ,185.7 ,0.0 ,1055.0 ,744.3 ,7 ,13.09
316.1 ,210.7 ,0.0 ,185.7 ,0.0 ,977.0 ,689.3 ,28 ,38.70
135.7 ,203.5 ,0.0 ,185.7 ,0.0 ,1076.2 ,759.3 ,7 ,7.51
238.1 ,0.0 ,0.0 ,185.7 ,0.0 ,1118.8 ,789.3 ,28 ,17.58
339.2 ,0.0 ,0.0 ,185.7 ,0.0 ,1069.2 ,754.3 ,7 ,21.18
135.7 ,203.5 ,0.0 ,185.7 ,0.0 ,1076.2 ,759.3 ,28 ,18.20
193.5 ,290.2 ,0.0 ,185.7 ,0.0 ,998.2 ,704.3 ,7 ,17.20
203.5 ,135.7 ,0.0 ,185.7 ,0.0 ,1076.2 ,759.3 ,28 ,22.63
290.2 ,193.5 ,0.0 ,185.7 ,0.0 ,998.2 ,704.3 ,7 ,21.86
181.9 ,272.8 ,0.0 ,185.7 ,0.0 ,1012.4 ,714.3 ,7 ,12.37
170.3 ,155.5 ,0.0 ,185.7 ,0.0 ,1026.6 ,724.3 ,28 ,25.73
210.7 ,316.1 ,0.0 ,185.7 ,0.0 ,977.0 ,689.3 ,28 ,37.81
228.0 ,342.1 ,0.0 ,185.7 ,0.0 ,955.8 ,674.3 ,7 ,21.92
290.2 ,193.5 ,0.0 ,185.7 ,0.0 ,998.2 ,704.3 ,28 ,33.04
381.4 ,0.0 ,0.0 ,185.7 ,0.0 ,1104.6 ,784.3 ,7 ,14.54
238.2 ,158.8 ,0.0 ,185.7 ,0.0 ,1040.6 ,734.3 ,28 ,26.91
186.2 ,124.1 ,0.0 ,185.7 ,0.0 ,1083.4 ,764.3 ,7 ,8.00
339.2 ,0.0 ,0.0 ,185.7 ,0.0 ,1069.2 ,754.3 ,28 ,31.90
238.1 ,0.0 ,0.0 ,185.7 ,0.0 ,1118.8 ,789.3 ,7 ,10.34
252.5 ,0.0 ,0.0 ,185.7 ,0.0 ,1111.6 ,784.3 ,28 ,19.77
382.5 ,0.0 ,0.0 ,185.7 ,0.0 ,1047.8 ,739.3 ,28 ,37.44
252.5 ,0.0 ,0.0 ,185.7 ,0.0 ,1111.6 ,784.3 ,7 ,11.48
316.1 ,210.7 ,0.0 ,185.7 ,0.0 ,977.0 ,689.3 ,7 ,24.44
186.2 ,124.1 ,0.0 ,185.7 ,0.0 ,1083.4 ,764.3 ,28 ,17.60
170.3 ,155.5 ,0.0 ,185.7 ,0.0 ,1026.6 ,724.3 ,7 ,10.73
272.8 ,181.9 ,0.0 ,185.7 ,0.0 ,1012.4 ,714.3 ,28 ,31.38
339.0 ,0.0 ,0.0 ,197.0 ,0.0 ,968.0 ,781.0 ,3 ,13.22
339.0 ,0.0 ,0.0 ,197.0 ,0.0 ,968.0 ,781.0 ,7 ,20.97
339.0 ,0.0 ,0.0 ,197.0 ,0.0 ,968.0 ,781.0 ,14 ,27.04
339.0 ,0.0 ,0.0 ,197.0 ,0.0 ,968.0 ,781.0 ,28 ,32.04
339.0 ,0.0 ,0.0 ,197.0 ,0.0 ,968.0 ,781.0 ,90 ,35.17
339.0 ,0.0 ,0.0 ,197.0 ,0.0 ,968.0 ,781.0 ,180 ,36.45
339.0 ,0.0 ,0.0 ,197.0 ,0.0 ,968.0 ,781.0 ,365 ,38.89
236.0 ,0.0 ,0.0 ,194.0 ,0.0 ,968.0 ,885.0 ,3 ,6.47
236.0 ,0.0 ,0.0 ,194.0 ,0.0 ,968.0 ,885.0 ,14 ,12.84
236.0 ,0.0 ,0.0 ,194.0 ,0.0 ,968.0 ,885.0 ,28 ,18.42
236.0 ,0.0 ,0.0 ,194.0 ,0.0 ,968.0 ,885.0 ,90 ,21.95
236.0 ,0.0 ,0.0 ,193.0 ,0.0 ,968.0 ,885.0 ,180 ,24.10
236.0 ,0.0 ,0.0 ,193.0 ,0.0 ,968.0 ,885.0 ,365 ,25.08
277.0 ,0.0 ,0.0 ,191.0 ,0.0 ,968.0 ,856.0 ,14 ,21.26
277.0 ,0.0 ,0.0 ,191.0 ,0.0 ,968.0 ,856.0 ,28 ,25.97
277.0 ,0.0 ,0.0 ,191.0 ,0.0 ,968.0 ,856.0 ,3 ,11.36
277.0 ,0.0 ,0.0 ,191.0 ,0.0 ,968.0 ,856.0 ,90 ,31.25
277.0 ,0.0 ,0.0 ,191.0 ,0.0 ,968.0 ,856.0 ,180 ,32.33
277.0 ,0.0 ,0.0 ,191.0 ,0.0 ,968.0 ,856.0 ,360 ,33.70
254.0 ,0.0 ,0.0 ,198.0 ,0.0 ,968.0 ,863.0 ,3 ,9.31
254.0 ,0.0 ,0.0 ,198.0 ,0.0 ,968.0 ,863.0 ,90 ,26.94
254.0 ,0.0 ,0.0 ,198.0 ,0.0 ,968.0 ,863.0 ,180 ,27.63
254.0 ,0.0 ,0.0 ,198.0 ,0.0 ,968.0 ,863.0 ,365 ,29.79
307.0 ,0.0 ,0.0 ,193.0 ,0.0 ,968.0 ,812.0 ,180 ,34.49
307.0 ,0.0 ,0.0 ,193.0 ,0.0 ,968.0 ,812.0 ,365 ,36.15
307.0 ,0.0 ,0.0 ,193.0 ,0.0 ,968.0 ,812.0 ,3 ,12.54
307.0 ,0.0 ,0.0 ,193.0 ,0.0 ,968.0 ,812.0 ,28 ,27.53
307.0 ,0.0 ,0.0 ,193.0 ,0.0 ,968.0 ,812.0 ,90 ,32.92
236.0 ,0.0 ,0.0 ,193.0 ,0.0 ,968.0 ,885.0 ,7 ,9.99
200.0 ,0.0 ,0.0 ,180.0 ,0.0 ,1125.0 ,845.0 ,7 ,7.84
200.0 ,0.0 ,0.0 ,180.0 ,0.0 ,1125.0 ,845.0 ,28 ,12.25

File: standardized_data.csv
Cement (component 1)(kg in a m^3 mixture),Blast Furnace Slag (component 2)(kg in a m^3 mixture),Fly Ash (component 3)(kg in a m^3 mixture),Water  (component 4)(kg in a m^3 mixture),Superplasticizer (component 5)(kg in a m^3 mixture),Coarse Aggregate  (component 6)(kg in a m^3 mixture),Fine Aggregate (component 7)(kg in a m^3 mixture),Age (day),"Concrete compressive strength(MPa, megapascals) "
2.47791,-0.856888,-0.847144,-0.916764,-0.620448,0.863154,-1.21767,-0.279733,79.99
1.85564,-0.856888,-0.847144,2.17546,-1.03914,-0.526517,-2.24092,-0.279733,39.29
0.946164,0.244722,-0.847144,2.17546,-1.03914,-0.526517,-2.24092,0.702224,40.56
0.582373,-0.416244,-0.847144,2.17546,-1.03914,-0.526517,-1.29254,2.12764,52.12
-0.418052,1.89714,-0.847144,2.17546,-1.03914,-0.526517,-2.24092,-0.279733,30.08
1.4009,-0.306083,-0.847144,2.17546,-1.03914,-0.526517,-2.24092,-0.612331,35.08
-1.35529,1.57129,-0.847144,0.488793,-1.03914,0.953226,0.415782,-0.612331,14.59
-0.87279,1.34633,-0.847144,2.17546,-1.03914,-0.526517,-1.29254,3.55307,50.66
1.37697,0.375755,-0.847144,-1.31501,1.72424,-1.55462,1.41657,-0.675683,33.4
0.360269,1.60724,-0.847144,-1.21193,1.35579,-1.55462,1.33296,-0.675683,25.2
1.04094,1.33474,-0.847144,-1.67108,2.64537,-0.363102,-0.221876,-0.675683,40.6
1.7982,0.50215,-0.847144,-2.05058,4.35364,-1.55462,0.835063,-0.612331,54.9
0.941377,0.896411,-0.847144,-1.29626,1.62375,2.07654,-2.10365,-0.612331,47.1
0.307615,2.18355,-0.847144,-0.284264,0.401166,0.951939,-2.0188,-0.279733,59.8
1.37697,0.375755,-0.847144,-1.31501,1.72424,-1.55462,1.41657,-0.279733,60.29
1.511,1.19558,-0.847144,0.207681,0.819861,-1.13257,-0.819602,-0.279733,66.0
1.85564,0.520704,-0.847144,-0.021893,0.45141,-1.55462,0.0988246,0.163731,72.3
0.407179,2.42243,-0.847144,0.104607,0.685878,-0.388837,-1.41858,0.163731,80.2
0.888723,1.33705,-0.847144,-0.537264,0.652383,-0.602435,-0.210645,0.718062,64.9
2.39463,-0.856888,-0.847144,-1.86317,3.68373,-1.55462,1.49893,0.718062,59.2
1.511,1.19558,-0.847144,0.207681,0.819861,-1.13257,-0.819602,0.718062,73.3
-0.453474,-0.856888,0.631768,0.765219,-0.268745,-0.333507,0.981063,-0.675683,10.38
-0.827795,-0.856888,0.724005,-0.748098,0.216941,0.430812,1.65117,0.860604,37.34
-0.661217,-0.856888,1.05387,-0.0593746,-0.0845194,1.08962,0.0713717,0.163731,34.2
-0.869918,-0.856888,1.11015,-0.92145,0.618887,1.48207,0.362124,-0.279733,28.47
-1.08341,-0.368701,1.71359,-2.80021,-0.0845194,1.10377,0.0813546,-0.501465,17.82
-0.644942,0.280669,-0.464128,0.00621811,0.0829584,1.1977,0.148739,-0.675683,13.18
-0.492725,-0.856888,1.00071,0.638719,-0.0175283,0.710033,-0.199414,0.860604,40.86
-0.298384,-0.856888,0.648965,0.273274,-0.118015,-0.206121,1.09337,0.163731,38.33
-0.656431,-0.856888,0.722442,-1.03858,0.702626,0.397357,1.62496,-0.279733,37.4
-0.47262,-0.856888,1.05387,-0.354542,0.0829584,1.07418,0.0613888,-0.501465,26.77
-0.284981,-0.856888,1.00228,0.324811,0.0327151,0.713893,-0.198167,-0.675683,13.12
-0.955122,-0.856888,1.76362,-0.56069,0.233688,1.06388,0.0526537,0.860604,45.37
-1.07479,-0.367541,1.09608,-1.09012,0.769617,1.38814,0.28226,0.163731,39.15
-0.0389435,-0.856888,0.675542,-0.982357,0.937095,0.0126237,1.27306,-0.279733,48.28
-0.281152,-0.856888,0.714625,-1.66171,1.03758,0.425665,1.57505,-0.501465,33.36
-0.276365,-0.856888,0.697428,-1.65234,1.33904,0.19148,1.44028,-0.675683,21.78
-0.329019,-0.856888,1.10858,-1.79289,0.970591,1.46535,0.34091,0.860604,66.42
0.153483,-0.856888,0.989771,-0.31706,0.551896,0.641836,-0.250577,0.163731,51.96
-0.647814,-0.856888,1.87618,-1.26347,0.920347,1.02142,0.0239529,-0.279733,45.94
-0.602819,-0.223752,1.08826,-1.91002,0.953843,1.32252,0.238585,-0.501465,35.96
-0.596118,-0.856888,1.09295,-1.08075,0.853356,1.36112,0.266038,-0.675683,15.34
0.90787,-0.856888,-0.847144,1.54765,-1.03914,0.393497,-0.139517,0.860604,43.06
2.28645,-0.856888,-0.847144,-0.30769,-0.168258,-1.32429,0.392072,-0.279733,51.02
2.24815,-0.856888,-0.847144,-0.916764,0.350923,-2.21214,0.354636,-0.279733,41.37
2.09498,-0.856888,-0.847144,-1.43214,0.468157,0.773083,-1.47972,-0.279733,69.84
-0.869918,-0.856888,1.11015,-0.701246,0.618887,1.36498,0.315953,-0.675683,12.55
-1.04128,-0.699184,1.84804,-1.16039,-0.352484,0.429525,1.03347,-0.501465,29.75
-1.11213,-0.856888,1.3978,-0.832431,-1.03914,0.420518,1.58877,-0.279733,26.2
-0.298384,-0.856888,0.648965,0.479422,-0.15151,-0.30906,1.04346,-0.279733,27.22
-1.03075,-0.275934,1.86524,-0.785579,0.0494629,0.428238,0.248568,0.163731,53.77
-1.11213,0.633184,1.21802,-0.303004,0.317427,0.423092,-0.336679,0.860604,55.02
-0.647814,-0.856888,1.87618,-1.04795,0.920347,0.909477,-0.0209701,0.860604,52.96
1.57801,-0.578587,0.387889,-0.916764,0.9036,-0.0761609,-0.76844,-0.675683,23.35
1.01318,-0.62497,0.622388,-1.15102,1.2888,-0.449313,0.891217,-0.279733,46.68
1.01318,-0.62497,0.622388,-1.15102,1.2888,-0.449313,0.891217,0.163731,47.97
2.00882,-0.555395,1.07575,0.91046,-0.385979,-1.94192,-0.930662,-0.675683,29.55
1.3674,-0.601778,1.21645,-0.635653,0.45141,-1.94192,-0.294252,-0.612331,40.29
0.0271133,-0.68295,1.35715,-0.120282,-0.118015,-1.68458,0.342158,0.163731,44.52
1.48228,-0.856888,-0.847144,1.70694,-1.03914,-1.7309,-0.672354,-0.279733,23.85
1.90351,-0.856888,-0.847144,0.488793,-1.03914,-0.472475,-0.765944,-0.675683,24.4
0.496212,-0.856888,-0.847144,0.488793,-1.03914,-0.536811,0.861268,0.702224,41.68
-0.0801093,1.2524,-0.847144,0.193626,-1.03914,0.508016,-0.739739,-0.612331,19.77
-0.743549,0.716674,-0.847144,0.193626,-1.03914,1.32895,-0.178201,-0.612331,11.96
0.555567,-0.856888,-0.847144,0.193626,-1.03914,1.23888,-0.240594,-0.612331,21.18
0.0864686,1.38692,-0.847144,0.193626,-1.03914,0.3253,-0.864525,-0.279733,33.04
0.334421,1.58637,-0.847144,0.193626,-1.03914,0.0525124,-1.0517,-0.612331,24.44
0.553653,-0.856888,-0.847144,0.723052,-1.03914,-0.0632935,0.0925853,2.12764,36.45
-0.0399008,-0.856888,-0.847144,0.441941,-1.03914,-0.0632935,1.02848,-0.279733,25.97
0.247302,-0.856888,-0.847144,0.535645,-1.03914,-0.0632935,0.479423,2.12764,34.49
-0.53772,-0.856888,-0.847144,-0.0265782,-1.03914,1.80247,0.741474,-0.279733,17.34
1.13763,-0.856888,-0.847144,0.254533,-1.03914,0.670144,-0.356645,-0.279733,43.7
-1.33902,1.60144,-0.847144,1.02759,-1.03914,-0.0143977,-0.31297,-0.279733,29.89
-1.65494,1.02628,-0.847144,1.02759,-1.03914,-0.44674,0.941132,-0.279733,20.59
-0.853644,2.48273,-0.847144,0.488793,-1.03914,-0.554826,-0.717277,-0.675683,12.79
-0.931188,0.564768,-0.847144,1.02759,-1.03914,-0.176526,0.329679,0.702224,32.53
-0.853644,2.48273,-0.847144,0.488793,-1.03914,-0.554826,-0.717277,0.702224,50.73
-1.22701,0.325893,-0.847144,0.488793,-1.03914,-1.09268,2.11537,-0.279733,17.96
-0.777056,0.685366,-0.847144,0.488793,-1.03914,-0.0967486,0.407047,-0.612331,17.17
0.231028,1.50288,-0.847144,1.02759,-1.03914,-0.0967486,-1.77921,0.702224,54.6
-0.743549,2.68334,-0.847144,1.02759,-1.03914,-0.122483,-1.79169,0.702224,51.86
0.477065,-0.856888,-0.847144,0.488793,-1.03914,0.670144,0.59173,0.702224,37.91
0.141995,-0.856888,-0.847144,0.207681,-1.03914,1.50652,-0.0571581,-0.612331,18.91
2.09498,-0.856888,-0.847144,0.863608,-1.03914,1.95688,-2.00382,-0.675683,26.06
2.47791,-0.856888,-0.847144,-0.401393,-1.03914,1.95688,-2.00382,3.55307,74.17
0.994031,-0.856888,-0.847144,0.207681,-1.03914,-0.0890282,-0.13203,-0.612331,23.22
0.965311,-0.856888,-0.847144,0.207681,-1.03914,1.77673,0.130021,-0.612331,11.47
0.141995,-0.856888,-0.847144,0.488793,-1.03914,1.44218,-0.107073,0.702224,29.39
0.649387,-0.856888,-0.847144,0.488793,-1.03914,0.953226,0.404551,4.97849,42.13
-0.279237,-0.856888,-0.847144,0.160829,-1.03914,1.77673,0.130021,-0.279733,19.69
0.276023,-0.856888,-0.847144,0.488793,-1.03914,-0.0375589,0.95361,-0.612331,14.99
2.33431,-0.856888,-0.847144,0.348237,-1.03914,1.95688,-2.00382,0.702224,58.78
2.30559,-0.856888,-0.847144,-1.66639,-1.03914,-0.989741,1.52763,-0.279733,74.99
0.888723,-0.856888,-0.847144,0.395089,0.133202,0.515736,-0.543824,-0.279733,39.05
0.812136,1.31154,-0.847144,0.441941,0.133202,-1.91619,-0.206902,-0.279733,65.91
0.429198,1.06803,-0.847144,-0.354542,0.468157,-1.16988,0.204893,-0.279733,61.23
0.161142,-0.856888,0.825622,1.33213,0.803113,-1.19562,-0.369124,-0.279733,31.87
-0.422839,0.209934,0.262822,3.06565,-0.034276,-1.54304,-0.980576,-0.279733,28.63
-1.35146,0.685366,0.763088,0.863608,0.133202,-0.732395,-0.256816,-0.279733,36.44
-1.24615,-0.856888,2.04502,-0.682505,1.6405,1.30064,-1.19271,-0.279733,13.46
-1.25573,1.89134,-0.847144,-0.354542,0.970591,1.23631,-1.23015,-0.279733,37.43
-1.29402,1.1492,-0.847144,0.0202737,-0.536709,0.168318,0.541816,-0.279733,23.74
-1.3036,-0.856888,1.95122,0.957312,0.30068,-1.91619,1.1907,-0.279733,10.54
-1.18871,1.62463,1.52912,0.863608,0.468157,-1.98053,-0.868269,-0.279733,33.05
-0.423796,0.206455,0.270639,3.06096,-0.034276,-1.54432,-0.975585,-0.279733,28.63
-1.35242,0.680727,0.767778,0.877664,0.200193,-0.732395,-0.251825,-0.279733,36.44
-1.24903,-0.856888,2.04971,-0.69656,1.57351,1.30708,-1.19271,-0.279733,13.46
-1.25573,1.88902,-0.847144,-0.363912,0.953843,1.24017,-1.23264,-0.279733,37.43
-1.29689,1.14456,-0.847144,0.0155885,-0.469718,0.165745,0.53932,-0.279733,23.74
-1.29977,-0.856888,1.94966,0.943256,0.267184,-1.91619,1.18696,-0.279733,10.54
-1.2385,1.20834,1.3212,-0.659079,2.0257,-0.372109,-0.985568,-0.279733,36.35
-1.24711,-0.856888,2.02782,-0.701246,0.9036,0.235229,-0.0172266,-0.279733,15.57
-1.15808,1.32314,1.44157,1.01353,0.853356,-1.85571,-0.79714,-0.279733,35.31
0.312402,-0.856888,0.913168,-0.546634,0.652383,-0.612729,0.116295,-0.279733,38.46
0.392819,-0.856888,0.960068,0.6762,0.702626,-1.99468,0.496893,-0.279733,31.18
-0.194033,0.308499,0.376945,0.891719,0.401166,-1.39506,-0.150748,-0.279733,32.4